sheet,column,description,example
(workbook),,"A tflspec workbook: one sheet per grain. Sheets whose name starts with _ are not read (notes). Each column is described on its header cell's comment and by tfl_spec_columns().",
(workbook),output_id,"The report a row belongs to. Blank: a study-wide default; a row naming a report replaces the default row with the same key (ARD analyses: the report the analysis serves).",T-14-1-1
(workbook),note,"A column for people, on any sheet; never read. Any other column a sheet does not read is an error (a mistyped header).",
(workbook),(list),"Several values in one cell: | between them.",TRT01A | SEX
(workbook),(tokens),"In titles, footnotes, header and footer cells: {PAGE} {TOTAL_PAGES} {AUTO_PAGE} {AUTO_TOTAL_PAGES} (page numbers), {PROGRAM} {PROGRAM_FULL} {PROGRAM_NAME} {PROGRAM_DIR} (the program; {PROGRAM_FULL} its absolute path), {DATETIME} {DATETIME:%Y-%m-%d} (the run), the report's own: {OUTPUT_ID}, {OUTPUT_LABEL} (Table 14.1.1, made from the ID; the tokens rows OUTPUT_KIND_TABLE / _LISTING / _FIGURE change the words), {OUTPUT_TITLE} {OUTPUT_POPULATION} {OUTPUT_SECTION} {STUDY_ID} (blank unless the tokens sheet says them; a line left with nothing but them is not printed), and your own from the tokens sheet ({STUDY} ...).",
study,,"What is one for the whole study: one row a key. Table / report keys: rounding, output_path, program_dir. ARD keys: id, output, source. No output_id.",
study,key,"The fact: rounding (r: round half to even; sas: round half away from zero; blank: options(rtfreporter.rounding)); output_path (the folder of the RTF files); program_dir (the folder of the programs, for {PROGRAM}); ARD: id (the subject key; default USUBJID), output (the study ARD's file; default output/ard/ard.rds), source (R files of the study's own analysis functions, relative to the study folder, | between them).",rounding
study,value,"Its value, as text.",sas
about,,"key / value: spec_version (a workbook of a newer version is refused by an older tflspec).",spec_version = 1
about,key,"spec_version.",spec_version
about,value,"A whole number.",1
datasets,,"ARD: the study's data, one row a dataset.",
datasets,dataset,"A name for the data, used by populations and analyses (and the object's name in the program, in lower case).",ADSL
datasets,level,"SDTM or ADaM (for people and ARS; not read by the program).",ADaM
datasets,path,"Its file, relative to the study folder; the reader follows the extension: .rds, .xpt, .sas7bdat, .csv, .parquet.",data/adam/adsl.xpt
datasets,derive,"New columns, NAME = R expression, | between them (transform()); blank: none.",AGE65 = AGE >= 65
populations,,"ARD: the populations, one row a population.",
populations,population_id,"The population's name, used by analyses.",SAF
populations,dataset,"The dataset its subjects come from.",ADSL
populations,where,"An R condition on that dataset choosing the subjects; blank: every row.","SAFFL == ""Y"""
populations,derive,"Columns added to the population, NAME = R expression, | between them; blank: none.",TRTA = TRT01A
analysis_data,,"ARD: named data the analyses read (the study's, one row a data): from a dataset or an analysis data above it, the subjects of a population, the records a condition keeps, columns of the population added, columns derived, one row per set of values. In that order. An analysis names one in `data`, or as its `denominator`.",
analysis_data,data_id,"The data's name, and its object's name in the ARD program: a lower-case letter first, then letters, digits, _ or . -- not a dataset's, pop_<population>'s or another data's.",adae_teae
analysis_data,label,"A name a person reads; blank: none.",Treatment-emergent AEs
analysis_data,from,"What it is made from: a dataset, or an analysis data of a row above.",ADAE
analysis_data,population_id,"Keeps the subjects of this population; blank: no restriction here (made from an analysis data: that one's population).",SAF
analysis_data,subjects,"Keeps the subjects of an analysis data above (a report's own subjects: the safety set in phase 1 ...): the numerator kept to the denominator's subjects. Instead of population_id; blank: no restriction here.",adsl_saf_p1
analysis_data,where,"An R condition on the records (the numerator's filter); blank: every record.","TRTEMFL == ""Y"""
analysis_data,add,"Columns of the population's data (its dataset, ADSL) -- or of the data of `subjects` -- added by the subject key, | between them; a column of the same name is replaced. Needs a population or subjects, here or above; blank: none.",TRT01A | AGEGR1
analysis_data,derive,"New columns, NAME = R expression, | between them (transform()); a column the code lists list becomes a factor in their order; blank: none.",PHASE = APHASE
analysis_data,keep,"The columns kept, | between them (the subject key always); with derive, what transmute() does; blank: every column.",TRT01A | AEBODSYS | AEDECOD
analysis_data,distinct,"One row for each set of values of these columns, | between them (dplyr::distinct(), the first row kept): a denominator per subject and phase; blank: every row.",USUBJID | APHASE
analysis_data,code,"R that makes the data itself, when the columns cannot say it: its value is the data; the datasets (adae), pop_<population> and the analysis data above are in reach. With it, the columns but from are left blank; blank: the columns make the data.","dplyr::filter(adae, USUBJID %in% pop_saf$USUBJID, AETOXGR >= 3)"
analyses,,"ARD: one analysis a row; each becomes one cards / cardx call in the ARD program, its result tagged with output_id, analysis_id and population_id.",
analyses,analysis_id,"The analysis's id within its report; an ARD column.",AGE
analyses,parent,"The analysis this one runs inside: an analysis of the same report whose method is cards::ard_stack (several analyses on the same data and by, with the by counts and the total N), cards::ard_strata (within subgroups) or cards::ard_pairwise (each pair of groups). It takes the parent's dataset, population_id and where (and in a stack its by), so leave those blank; blank: an analysis of its own.",DEMO
analyses,label,"A name a person reads (for ARS and the GUI); blank: none.",Age (years)
analyses,method,"What is computed: a keyword of tfl_ard_methods() (continuous, categorical, hierarchical ...), any pkg::function (cards::, cardx::), or a function of the study's own that the study key source loads.",continuous
analyses,data,"The analysis data analysed (a data_id of analysis_data), instead of dataset and population_id: the population is its population; blank: dataset and population_id say it.",adae_teae
analyses,dataset,"The data analysed; blank: the population's own dataset. Blank when `data` is given.",ADAE
analyses,population_id,"The population: the data is restricted to its subjects; blank: no restriction (population is NULL), or the population of `data`.",SAF
analyses,where,"An R condition on the data, applied after the population (on an analysis data: after its own conditions); blank: every row.","TRTEMFL == ""Y"""
analyses,by,"Grouping variables (cards' by), | between them; blank: none.",TRT01A
analyses,strata,"Variables the analysis is repeated within (cards' strata: a subgroup, a parameter by visit), | between them; blank: none.",PARAMCD | AVISIT
analyses,variables,"The variables analysed (cards' variables), | between them.",AGE | BMIBL
analyses,statistics,"For continuous / categorical / missing: the statistics computed, in order (tfl_ard_statistics()); for other methods: the statistics kept of what the method gives; | between them; blank: the method's default.",N | mean | sd
analyses,denominator,"What percentages are of: population (hierarchical and max take it anyway), row / column / cell (cards), another population, a dataset (its records of the population's subjects), or an analysis data (as it is: one row a subject and phase gives the N of each phase); blank: the method's default.",row
analyses,formats,"Display formats, statistic=format, | between them; VAR:statistic=format for one variable. xx.x = one decimal (the x's count only after the point), xx.x% = a proportion as a percent, a number = decimals, pvalue = <0.001 or 3 decimals; blank: the statistic's default.",mean=xx.x | p=xx.x%
analyses,args,"More arguments of the call, as R (data and population are bound), in any order; refused if not R. An argument a column gives (by, variables, strata, denominator, statistic) may not be given here too; blank: none.",over_variables = TRUE
analyses,post,"Steps on the ARD after the call, each a call with the ARD left out, | between them: cards::add_calculated_row() (a statistic computed from others), cards::filter_ard_hierarchical() (only the rows that pass), cards::sort_ard_hierarchical(), cards::diff_ard_hierarchical(), or a function of your own that takes an ARD and gives one; blank: none.","cards::add_calculated_row(expr = sd / sqrt(N), stat_name = ""se"")"
analyses,code,"method = custom only: the R code that gives the ARD (data and population are bound).","cards::ard_tabulate(data, variables = SEX)"
analyses,purpose,"For CDISC ARS (tfl_ars()): PRIMARY / SECONDARY / EXPLORATORY OUTCOME MEASURE; blank: tfl_ars(purpose = ).",PRIMARY OUTCOME MEASURE
analyses,reason,"For CDISC ARS: SPECIFIED IN PROTOCOL / SPECIFIED IN SAP / DATA DRIVEN / REQUESTED BY REGULATORY AGENCY; blank: SPECIFIED IN SAP.",SPECIFIED IN SAP
tables,,"Table: one row a report. Its roles (table_plan()) and the table-wide options; a verb written in code afterwards wins.",
tables,cols,"The key spread across the columns, outermost first, | between them (table_plan(cols = )).",TRTA | SEX
tables,rows,"The keys down the rows (table_plan(rows = )); name = column renames, a quoted value is a constant heading; | between them.","group1 = AEBODSYS | grp = ""Worst Post-Baseline Values"""
tables,label,"Where the row label comes from (table_plan(label = )); blank: .label; NA: used to tell rows apart, not printed; NULL: not used.",label = AEDECOD
tables,stats,"cells (cells built from templates) or rows (one statistic a row, the raw values) (plan_cells(stats = )); blank: cells.",rows
tables,value,"Which of the ARD's values the table prints: stat (the number, rounded here: the digits sheet, a template's {x:.1f}) or stat_fmt (the ARD's own text, as it was formatted: no digits to set; a template still combines them, {mean} ({sd})); a row may say otherwise in its template ({mean:stat_fmt}, {mean:.1f}). With stats = rows: which goes in the cell (plan_cells(value = )). Blank: stat.",stat
tables,sep,"What joins several column keys into a column name (plan_columns(sep = )); the columns sheet names value columns with it; blank: ____.",_
tables,sort,"TRUE, FALSE, or the sort keys in order, - in front for descending (plan_sort()); blank: the data's order.",.overall | group1 | -n | label
tables,sort_stat,"The statistic totalled across columns for a frequency order (plan_sort(stat = )).",n
tables,na,"What a cell no template could fill prints (plan_cells(na = )); blank: empty.",-
tables,header_n,"Which population {n} in the column header is, for a table split by page (a lab parameter): page (those with that page's data), table (the population), or both as n = page | N = table for {n} and {N}; blank: page (warns when both exist and differ). Both must be in the ARD.",n = page | N = table
variables,,"Table: one row a variable (an analysis variable, a column key or the label column).",
variables,variable,"The variable's name.",AGEGR1
variables,label,"What prints for its name (plan_labels()); blank: the name.",Age (years)
variables,order,"Its place among the variables (a number); blank: the data's order.",1
variables,levels,"Its values in print order, | between them (plan_levels()); blank: the data's order.",Grade 0 | Grade 1 | Total
variables,empty_levels,"Its values no record has -- a code list's value, counted 0 in every column -- show (a 0 row) or hide (plan_levels(.drop_empty = )); blank: show.",hide
codelists,,"A report's code lists, one row a value of a variable -- its place and what it is in the data the report's program makes (the ARD, a listing's or a figure's data): the program puts them on the columns it reads (cl_<variable>, set_levels()), each a factor in the list's order, its values the labels. A value the list does not have stops the program. Every row names its report in `output_id` (a blank one is an error: copy the rows into each report that uses them). A variable's `levels` on the variables sheet, when given, is the order in the table instead; a variable's heading is the variables sheet's `label`.",
codelists,variable,"The variable (an analysis variable or a column key).",SEX
codelists,value,"A value as the data have it.",F
codelists,label,"What the value is in the data the program makes, and so what prints; blank: the value.",Female
codelists,order,"Its place among the variable's values (a number); blank: after the numbered ones, in the sheet's order.",2
cells,,"Table: one row a line of a cell (plan_cells()). Rows with the same variable / context / row are one chain, tried top down. With stats = rows, a row with no template is one statistic's digits (plan_digits(.rows = )): row = the statistic as the label column prints it.",
cells,variable,"What the template is for: a variable, continuous / categorical (every variable of that kind); blank: every variable.",continuous
cells,context,"Only the ARD rows of this context (one variable summarised two ways); blank: any.",summary
cells,row,"The row's label; blank: one row a level, labelled by the level.",Mean (SD)
cells,when,"An R condition on the statistics; the row is used only when it holds; blank: always.",n == 0
cells,template,"The cell's text with {statistic:format} tokens.",{mean} ({sd})
cells,digits,"Decimals of a token with no format, a comma between tokens; blank: plan_digits().","2,3"
cells,signif,"Significant digits (wins over digits); blank: none.",4
digits,,"Table: the decimals of each statistic, written once for every analysis variable, and a variable's exceptions. A template's own format ({mean:.2f}) or a cells row's digits win; a table of stat_fmt (tables$value) is not rounded here.",
digits,variable,Blank: every analysis variable (the rule); a variable: its exception.,WEIGHTBL
digits,statistic,"The statistic, as the ARD names it (mean, sd, median, p ...).",mean
digits,digits,"Its decimals, a whole number (p, a percent: 1 prints 61.6).",1
layout,,"Table: one row a report. Pages, groups, blank rows, stub; the prefix names the plan verb, the rest its argument.",
layout,pages_max_rows,"Rows a page (plan_paginate_rows(max_rows = )), a whole number; blank: as_rtftables()' default.",26
layout,pages_split,"How a page break may cut: group_safe / group_force / rows / ... (plan_paginate_rows(split = )); blank: as_rtftables()' default.",group_force
layout,pages_break_before,"Row positions to cut before, | between them, with pages_split = rows (plan_paginate_rows(break_before = )); blank: none.",20 | 40
layout,pages_min_group_rows,"Rows of a group kept together at the foot of a page, a whole number (plan_paginate_rows(min_group_rows = )); blank: the default.",2
layout,pages_cont_label,"Appended to a group label continued on the next page (plan_paginate_rows(cont_label = )); quote it to keep leading spaces; blank: none.",""" (Cont.)"""
layout,pages_page_by,"BY pages: the column(s) whose value partitions the body first, each value a page, the row budget then applying within one (plan_paginate_rows(page_by = )); | between them; print it or hide it (columns$hide); blank: none.",APERIODC
layout,group_col,"With group_page = TRUE: the column whose values each start a page (plan_paginate_group(col = )); blank: the outermost row key.",PARAM
layout,group_mode,"How groups print (plan_row_group(mode = )): value / indent / ...; blank: the default.",indent
layout,group_collapse,"TRUE, or the columns (names or positions, | between them) whose repeated values print once (plan_row_group(collapse = )); blank: none.",1 | 2
layout,group_page,"TRUE / FALSE: one page per value of group_col (plan_paginate_group()); blank: FALSE.",TRUE
layout,group_keep,"TRUE / FALSE: with group_page, FALSE leaves the group column unprinted (plan_paginate_group(keep = )); blank: TRUE.",FALSE
layout,blank_where,"Where blank rows go: a named rule such as between_groups, or row positions -- a blank after each, 0 before the first row, -1 after the last (0 | 5 | -1) (plan_blanks(where = )); blank: none.",between_groups
layout,blank_first,"TRUE / FALSE: a blank row before the first row (plan_blanks(first = )); blank: the default.",TRUE
layout,blank_last,"TRUE / FALSE: a blank row after the last row (plan_blanks(last = )); blank: the default.",TRUE
layout,blank_counted,"TRUE / FALSE: blank rows count towards pages_max_rows (plan_blanks(counted = )); blank: the default.",TRUE
layout,stub_vars,"The row-key columns folded into one stub column, | between them (plan_stub(vars = )); blank: the row keys.",group1 | label
layout,stub_name,"The stub column's name (plan_stub(name = )); blank: the default.",row_label
layout,stub_indent,"Spaces a level is indented in the stub, a whole number (plan_stub(indent = )); blank: the default.",2
layout,stub_summary,"How a group's summary row shows in the stub (plan_stub(group_summary = )); blank: the default.",header
layout,stub_before,"TRUE / FALSE: fold the stub before cell styles and sorting see the rows (plan_stub(before = )); blank: FALSE.",TRUE
layout,colpages_every,"Value columns a column page, a whole number (plan_paginate_cols(every = )); blank: no column pages.",4
layout,colpages_at,"The columns to cut before (names or positions), | between them (plan_paginate_cols(at = )).",16 | 29
layout,colpages_cut_by,"A separator in the column names: one column page per key before it (plan_paginate_cols(cut_by = )).",____
layout,colpages_keep,"Columns printed on every column page (names or positions), | between them (plan_paginate_cols(keep = )); blank: the stub.",1 | 2
layout,colpages_fit,"TRUE / FALSE: TRUE puts every column page on page 1's width scale, FALSE keeps each column's width (plan_paginate_cols(fit = )); blank: TRUE.",FALSE
layout,colpages_allow_span_break,"TRUE / FALSE: FALSE never cuts inside a spanning header cell (plan_paginate_cols(allow_span_break = )); blank: TRUE.",FALSE
layout,colpages_order,"The order the axes nest in, outermost first: group / rows / cols, or across / down (plan_paginate_cols(order = )); | between them; blank: the default.",across
columns,,"Table: one row a printed column, by name (the stub by stub_name, a value column by its keys joined with tables$sep); .values = every value column. Named columns win over .values.",
columns,column,"A column name, or .values.",row_label
columns,rel_width,"Relative width (a number; plan_columns(widths = )). Give one to every printed column (.values covers the value columns); blank: rtfreporter's widths.",5
columns,row_title,"TRUE / FALSE: a row-title column (plan_columns(row_title = )); blank: FALSE.",TRUE
columns,decimal_split,"TRUE / FALSE: align the decimal points (plan_columns(decimal = )); blank: FALSE.",TRUE
columns,hide,"TRUE / FALSE: used, not printed (plan_hide()); blank: FALSE.",TRUE
style,,"Table: one row a report; plan_style()'s arguments (auto_width goes to plan_columns()). Blank: the document's or rtfreporter's default.",
style,border,"The table's rules: tfl (header top and bottom, a bottom rule on the last row) or none; blank: tfl.",tfl
style,align_count_pct,"TRUE / FALSE: realign n (xx.x) count / percent cells to one width; blank: FALSE.",TRUE
style,auto_width,"TRUE / FALSE: size each column to its widest content (plan_columns(auto_width = )); an explicit rel_width wins; blank: FALSE.",TRUE
style,row_height_twips,"Data row height in twips (1/1440 inch); blank: from the font size.",240
style,row_height_exact,"TRUE / FALSE: TRUE exact (clipped), FALSE at least; blank: FALSE.",TRUE
style,header_row_height_twips,"Column-header row height in twips; blank: row_height_twips.",300
style,blank_row_height_twips,"Blank separator row height in twips; blank: row_height_twips.",120
style,cell_padding_left_twips,"Left cell padding in twips; blank: 0.",60
style,cell_padding_right_twips,"Right cell padding in twips; blank: 0.",60
style,font,"Font family of the table; blank: the document's (Courier).",Arial
style,font_size_half_points,"Font size in half-points (18 = 9 pt); blank: the document's.",16
style,table_align,"Placement of the table: left / center / right; blank: left.",center
style,cell_valign,"Vertical alignment in a cell: bottom / top / center; blank: bottom.",top
style,markup,"Cell-text markup, one of script (^{} _{} as super / subscript), relational (>= <= as symbols), all, none; blank: the document's (script).",all
style,blank_row_normalize,"One of detect (an all-empty data row prints as one blank row), collapse (a run of blank rows prints as one), none; blank: both detect and collapse.",none
style,border_header,"The column header's rules: sides from top | bottom | left | right, or none; blank: border's.",top | bottom
style,border_spanning,"The spanning header cells' rules: sides, or none; blank: border's.",bottom
style,border_body,"The body rows' rules: sides, or none; blank: border's.",none
style,border_first_row,"The first body row's rules: sides, or none; blank: border's.",top
style,border_last_row,"The last body row's rules: sides, or none; blank: border's.",bottom
style,header_align,"The whole column header's alignment: left / center / right (rtf_table_style()); blank: each column's.",center
style,header_bold,"TRUE / FALSE: the whole column header bold; blank: FALSE.",TRUE
style,header_italic,"TRUE / FALSE: the whole column header italic; blank: FALSE.",TRUE
style,align,"The body's default alignment: left / center / right (rtf_table_style()); blank: row-title columns left, the others center.",left
style,bold,"TRUE / FALSE: the body bold by default; blank: FALSE.",TRUE
style,italic,"TRUE / FALSE: the body italic by default; blank: FALSE.",TRUE
style,underline,"TRUE / FALSE: the body underlined by default; blank: FALSE.",TRUE
style,table_width_twips,"The table's width in twips (1/1440 inch); blank: the page's writable width.",12960
style,table_width_pct,"The table's width as a percentage of the page width; blank: the page's writable width.",80
style,table_width_pct_of_writable,"The table's width as a percentage of the writable width (inside the margins); blank: 100.",90
style,col_header_align,"The column header text's alignment, every header row: left / center / right (plan_col_header(col_header_align = )); blank: each column's data alignment.",center
cell_styles,,"Table: one row a plan_cell_style(), applied in order; a report's own rows replace the default rows whole.",
cell_styles,cols,"The columns styled, | between them (.values = every value column); blank: every column.",Placebo | .values
cell_styles,header,"TRUE / FALSE: TRUE styles the column header instead of the body; blank: FALSE.",TRUE
cell_styles,where,"An R condition over the table's columns choosing the rows; blank: every row. Two rows with a where may not set the same look: join their conditions with |.","label == ""Any TEAE"""
cell_styles,bold,"TRUE / FALSE; blank: unchanged.",TRUE
cell_styles,italic,"TRUE / FALSE; blank: unchanged.",TRUE
cell_styles,align,"left / center / right; blank: unchanged.",center
cell_styles,color,"Text colour, #RRGGBB; blank: unchanged.",#CC0000
cell_styles,background,"Cell shading, #RRGGBB; blank: unchanged.",#EEEEEE
cell_styles,underline,"TRUE / FALSE; blank: unchanged.",TRUE
cell_styles,indent_twips,"Left indent of the cell text in twips (not on the header); blank: unchanged.",200
col_header,,"Table: one row a header cell (plan_col_header(header = )). A report's own cells replace the default header whole.",
col_header,line,"The header row, a whole number (1 = the top).",1
col_header,cols,"The columns the cell sits on: a name, .values (every value column), a position or range (3, 3:31, 3:last), or KEY = value (the columns whose key has that value); | between them.",.values
col_header,span,"Blank: one cell over cols; each: one cell a column; a key's name: one cell per value of that key (a spanner).",TRTA
col_header,text,"What prints; a line break is Alt+Enter or \n. Tokens: {col} {col1} {col2} (the column's keys), {n} {n1} {n2} (the population at that depth, read from the ARD), {n:sum} (the total over the cell's columns). Quote it to keep leading spaces.",{col1}\n(N={n:sum})
col_header,align,"left / center / right (col_cell()); blank: the default.",center
col_header,bold,"TRUE / FALSE; blank: FALSE.",TRUE
col_header,border_top,"The cell's top rule: single / double / none ... (rtf_border()); blank: the header's.",single
col_header,border_bottom,"The cell's bottom rule, as border_top.",single
report,,"Report: one row a report; blank output_id: the study's default.",
report,type,"table / listing / figure / user (the report's own code leaves `content`: a data frame, rtftable pages, rtfplot figures or a list of them); blank: table.",listing
report,file,"The RTF file, relative to the study key output_path; {output_id} is the report's id; blank: {output_id}.rtf.",{output_id}.rtf
report,program,"The program's name, joined to program_dir for {PROGRAM}; blank: the file name of the program that runs, {output_id} only when none is found.",t_14_1_1.R
report,auto_section,"TRUE / FALSE: each named table a section with its name in the page header (rtf_tables(auto_section = )); blank: FALSE.",TRUE
report,section_align,"left / center / right: the section label (rtf_tables(section_label_align = )); blank: left.",left
report,auto_title,"TRUE / FALSE: each named table's name as its last title line (rtf_tables(auto_title = )); blank: FALSE.",TRUE
report,title_align,"left / center / right: that title line (rtf_tables(title_label_align = )); blank: left.",center
report,table_font_size_half_points,"The table's font size in half-points (18 = 9 pt) (rtf_tables(font_size_half_points = )); blank: the document's.",14
report,title_font_size_half_points,"The titles' font size in half-points; blank: the document's.",20
report,footnote_font_size_half_points,"The footnotes' font size in half-points; blank: the document's.",14
report,page_header,"TRUE / FALSE: FALSE drops the running page header for this report, the study's default lines included; blank: TRUE.",FALSE
report,page_footer,"TRUE / FALSE: FALSE drops the running page footer, likewise; blank: TRUE.",FALSE
report,watermark,"A word drawn diagonally behind every page (rtf_document(watermark = )); blank: none.",DRAFT
report,figure_width_in,"A figure report: the figure's width in inches (rtf_figures(width_twips = )); blank: the figure's own.",9
report,figure_height_in,"A figure report: the figure's height in inches (rtf_figures(height_twips = )); blank: the figure's own.",5
report,ard_source,"Where the report's ARD comes from: blank (a figure: none), its own ARD definition (the analyses rows of its output_id; a figure: own); import:<file>, an ARD made elsewhere and taken in (the file in the study's input/ard/ folder, read with tfl_read_ard()); table:<output_id>, a figure's: that table's ARD.",import:t_14_2_1_cro.json
page,,"Report: one row a report; the page (rtf_page()) and the document's text defaults (rtf_default_format()). Blank: rtfreporter's options (landscape Letter, 0.75 in margins).",
page,paper_size,"letter / legal / A4 / A3 / A5; blank: letter.",A4
page,orientation,"landscape / portrait; blank: landscape.",portrait
page,width_in,"Page width in inches (wins over paper_size); blank: the paper's.",11
page,height_in,"Page height in inches; blank: the paper's.",8.5
page,margin_top_in,"Top margin in inches; blank: 0.75.",1
page,margin_bottom_in,"Bottom margin in inches; blank: 0.75.",1
page,margin_left_in,"Left margin in inches; blank: 0.75.",0.5
page,margin_right_in,"Right margin in inches; blank: 0.75.",0.5
page,header_dist_in,"From the page's top edge to the running header, in inches; blank: the top margin.",0.5
page,footer_dist_in,"From the page's bottom edge to the running footer, in inches; blank: the bottom margin.",0.5
page,font,"The document's font (its font table); the study's row (blank output_id) is the company's, written once in the setup code; blank: rtfreporter's option (Courier).",Courier New
page,font_size_half_points,"The body font size in half-points (18 = 9 pt); blank: rtfreporter's option.",18
page,title_format,"text (centred paragraphs) / table (a content-width one-column table); blank: text.",table
page,footnote_format,"table (content-width, with the separator rule) / text (paragraphs); blank: table.",text
page,title_width,"The title block's width: content / page / a fraction of the writable width / twips; blank: content.",page
page,footnote_width,"The footnote block's width, as title_width; blank: content.",page
page,markup,"Cell-text markup for the whole document: script / relational / all / none; blank: script.",all
header,,"Report: the running page header, one row a line; the line is the key (the study's lines on blank output_id, a report's own on its rows). A line with no text is a blank line; a report's line that says (none) takes the study's line of that number out.",
header,line,"The line number, a whole number (1 = the top).",1
header,left,"The text at the left; tokens work.",Protocol XYZ-001
header,center,"The text in the centre.",CONFIDENTIAL
header,right,"The text at the right.",Page {PAGE} of {TOTAL_PAGES}
footer,,"Report: the running page footer, one row a line, as header. A line 99 on blank output_id closes every report.",
footer,line,"The line number.",99
footer,left,"The text at the left.",{PROGRAM}
footer,center,"The text in the centre.",
footer,right,"The text at the right.",Generated on: {DATETIME}
titles,,"Report: the titles above the table, one row a line, as header.",
titles,line,"The line number.",1
titles,left,"The text at the left.",
titles,center,"The text in the centre.",Table 14.1.1
titles,right,"The text at the right.",
footnotes,,"Report: the footnotes below the table, one row a line, as header.",
footnotes,line,"The line number.",1
footnotes,left,"The text at the left.",CV = Coefficient of variation
footnotes,center,"The text in the centre.",
footnotes,right,"The text at the right.",
tokens,,"Report: tokens of your own for the header, footer, titles and footnotes, one row a token, written {NAME} there; a report's row replaces the default of the same name, (none) takes it out.",
tokens,name,"The token's name: upper case, a letter then letters, digits or _; not one of rtfreporter's own ({PAGE}, {PROGRAM}, {DATETIME} ...).",STUDY
tokens,value,"What it becomes; (none) takes a default out for this report.",ABC-123
listings,,"Listing: one row a listing (listing_spec()).",
listings,type,"An rtfreporter listing type (listing_spec(type = )); blank: multiline.",multiline
listings,dataset,"The dataset listed (of the ARD spec's datasets catalog).",ADAE
listings,where,"An R condition on its columns choosing the rows; blank: every row.","AESEV == ""SEVERE"""
listings,sort,"The sort variables, | between them, - in front for descending; blank: the data's order.",USUBJID | -ASTDY
listings,max_rows,"Rows a page, a whole number; blank: rtfreporter's default.",20
listings,blank_row,"TRUE / FALSE: a blank row after each record (listing_spec(blank_row = )); blank: the type's.",FALSE
listings,wrap,"The name of an R function that breaks a cell into lines (listing_spec(wrap = )); blank: the type's own rule.",my_wrap
listing_cols,,"Listing: one row a printed column, in order (listing_col()).",
listing_cols,vars,"The variables stacked in the column, | between them.",USUBJID | AGE
listing_cols,label,"The column header; \n is a line break; blank: the variables' names.",Subject\nAge
listing_cols,width,"Characters a line before the cell wraps (listing_col(width = )), a whole number; blank: never wraps.",12
listing_cols,sep,"What separates the stacked variables (listing_col(sep = )); quote it to keep its spaces; blank: the type's (/).",""" / """
listing_cols,align,"left / center / right (listing_col(align = )); blank: the type's (left).",center
listing_cols,collapse_repeats,"TRUE / FALSE: TRUE prints a value once until it changes; blank: FALSE.",TRUE
