call,arg,kind,hint,choices
*,data,data,The analysis data (the data of the analysis row: its dataset and analysis set).,
*,by,columns,"The group columns, e.g. the treatment (TRT01A): the analysis is done within each group (in a test: the groups compared).",
*,variables,columns,The analysed columns; several may be given (one call analyses each).,
*,strata,columns,"Columns to analyse within, like by, but only the combinations the data have (e.g. a parameter by visit).",
*,id,column,"The subject key, e.g. USUBJID; subjects are counted once.",
*,denominator,denominator,"What a percentage divides by: the analysis set (population), or cards' row / column / cell.",
*,statistic,statistics,The statistics to keep or compute.,
*,conf.level,number,"Confidence level, a number between 0 and 1 (0.95).",
*,fmt_fun,code,How each statistic is formatted in stat_fmt (the analysis row's formats column writes it).,
*,stat_label,code,Labels of the statistics in the ARD.,
*,formula,formula,"A model formula, e.g. AVAL ~ TRT01P + AGE.",
*,method,choice,The method to use.,
*,method.args,code,"Further arguments of the model function, as a list (list(family = binomial)).",
*,x,code,The input object (a fitted model or a survival fit) when it is not the data.,
*,include,columns,Which of the variables to report (default: all of them).,
*,value,levels,"The level to count for each variable, e.g. list(SAFFL = ""Y"").",
cards::ard_tabulate_value,value,levels,"The level counted for each variable, e.g. list(AESER = ""Y""); blank: the variable's maximum level (TRUE, ""Y"", the highest).",
cards::ard_stack,.by,columns,"The group columns every analysis inside is done by, e.g. TRT01A.",
cards::ard_stack,.overall,logical,"TRUE: also each analysis over all groups (an ""Overall"" column).",
cards::ard_stack,.missing,logical,TRUE: also the missing counts of each variable.,
cards::ard_stack,.attributes,logical,TRUE: also each variable's label.,
cards::ard_stack,.total_n,logical,"TRUE: also the total number of rows (subjects), for a ""(N=...)"" header.",
cards::ard_stack,.by_stats,logical,TRUE (default): also the counts of each group (the N of the column headers).,
cards::ard_stack_hierarchical,variables,columns,"The levels of the hierarchy, outermost first: AEBODSYS then AEDECOD.",
cards::ard_stack_hierarchical,denominator,data,"The subjects the rates divide by: the analysis set (population), with the by columns.",
cards::ard_stack_hierarchical,over_variables,logical,"TRUE: also ""any event"" rows over the whole hierarchy.",
cards::ard_stack_hierarchical,overall,logical,"TRUE: also each level over all groups (an ""Overall"" column).",
cards::ard_stack_hierarchical,include,columns,The levels of the hierarchy to report (default: all).,
cards::ard_stack_hierarchical_count,over_variables,logical,TRUE: also total event rows over the whole hierarchy.,
cardx::ard_tabulate_max,variables,columns,The graded columns (AETOXGR); the worst level per subject is counted.,
cardx::ard_categorical_ci,value,levels,"The level whose proportion is estimated, e.g. list(AVALC = ""CR"").",
cardx::ard_continuous_ci,method,choice,t.test (the mean) or wilcox.test (the pseudo-median).,
cardx::ard_incidence_rate,time,column,The time at risk of each subject (in units of unit_label).,
cardx::ard_incidence_rate,count,column,The number of events of each subject (blank: one record = one event).,
cardx::ard_incidence_rate,n_person_time,number,The person-time the rate is expressed per (100 = per 100 person-years).,
cardx::ard_incidence_rate,unit_label,text,"The unit of time at risk, e.g. years.",
cardx::ard_tabulate_abnormal,postbaseline,column,The post-baseline range indicator (ANRIND).,
cardx::ard_tabulate_abnormal,baseline,column,The baseline range indicator (BNRIND).,
cardx::ard_tabulate_abnormal,abnormal,code,"The abnormal levels and their names, as R: list(Low = ""LOW"", High = ""HIGH"").",
cardx::ard_stats_aov,formula,formula,"The model, e.g. AVAL ~ TRT01P.",
cardx::ard_stats_oneway_test,formula,formula,"The model, e.g. AVAL ~ TRT01P.",
cardx::ard_stats_anova,formulas,code,"The models compared, as a list of formulas: list(AVAL ~ TRT01P, AVAL ~ TRT01P + AGE).",
cardx::ard_stats_paired_t_test,id,column,"The subject key that pairs the two records, e.g. USUBJID.",
cardx::ard_stats_paired_wilcox_test,id,column,"The subject key that pairs the two records, e.g. USUBJID.",
cardx::ard_stats_mcnemar_test_long,id,column,"The subject key that pairs the two records, e.g. USUBJID.",
cardx::ard_regression,formula,formula,"The model, e.g. AVAL ~ TRT01P + BASE.",
cardx::ard_regression,method,text,"The model function, e.g. lm, glm, survival::coxph.",
cardx::ard_regression_basic,formula,formula,"The model, e.g. AVAL ~ TRT01P + BASE.",
cardx::ard_regression_basic,method,text,"The model function, e.g. lm, glm.",
cardx::ard_emmeans_emmeans,formula,formula,"The model, e.g. AVAL ~ TRT01P + BASE.",
cardx::ard_emmeans_emmeans,method,text,"The model function, e.g. lm, glm.",
cardx::ard_emmeans_emmeans,primary_covariate,text,"The name of the column whose LS means are reported, e.g. TRT01P (default: the first term of the formula).",
cardx::ard_emmeans_contrast,formula,formula,"The model, e.g. AVAL ~ TRT01P + BASE.",
cardx::ard_emmeans_contrast,method,text,"The model function, e.g. lm, glm.",
cardx::ard_emmeans_contrast,primary_covariate,text,"The name of the column whose LS means are reported, e.g. TRT01P (default: the first term of the formula).",
cardx::ard_survival_survfit,y,formula,"The survival outcome, e.g. survival::Surv(AVAL, 1 - CNSR).",
cardx::ard_survival_survfit,variables,columns,"The group columns of the Kaplan-Meier fit, e.g. TRT01P.",
cardx::ard_survival_survfit,times,number,"The times survival is estimated at, e.g. c(180, 365).",
cardx::ard_survival_survfit,probs,number,"The survival quantiles, e.g. 0.5 for the median.",
cardx::ard_survival_survfit,type,choice,"What is estimated at the times: survival, risk (1 - survival) or cumhaz.",survival | risk | cumhaz
cardx::ard_survival_survdiff,formula,formula,"The model, e.g. survival::Surv(AVAL, 1 - CNSR) ~ TRT01P.",
cardx::ard_survival_survfit_diff,times,number,"The times the difference is estimated at, e.g. c(180, 365).",
cards::ard_strata,.by,columns,Columns whose levels form the subgroups (all combinations).,
cards::ard_strata,.strata,columns,Columns whose levels form the subgroups (only the combinations present).,
cards::ard_strata,.f,code,"The analysis run within each subgroup, e.g. ~ ard_summary(.x, variables = AGE).",
cards::ard_pairwise,variable,column,"The column whose pairs of levels are compared, e.g. TRT01A.",
cards::ard_pairwise,.f,code,"The analysis run on each pair, e.g. ~ cardx::ard_stats_t_test(.x, by = TRT01A, variables = AGE).",
cards::ard_pairwise,include,code,"The levels whose pairs are compared, as R: c(""Placebo"", ""Drug A"") (default: every pair).",
cards::ard_mvsummary,statistic,code,"Your statistics, as functions of x (the variable) and data: ~ list(ratio = function(x, data, ...) ...).",
cardx::ard_regression_basic,stats_to_remove,code,"The columns of the coefficient table left out, as R: c(""var_type"", ""var_label"").",
cards::ard_stack_hierarchical,attributes,logical,TRUE: also each variable's label.,
cards::ard_stack_hierarchical,total_n,logical,TRUE: also the total number of subjects.,
cards::ard_stack_hierarchical,shuffle,logical,No longer used (cards 0.7.0): leave it at the default.,
cards::ard_stack_hierarchical,by_stats,logical,TRUE (default): also the counts of each group.,
cards::ard_stack_hierarchical_count,attributes,logical,TRUE: also each variable's label.,
cards::ard_stack_hierarchical_count,total_n,logical,TRUE: also the total number of subjects.,
cards::ard_stack_hierarchical_count,shuffle,logical,No longer used (cards 0.7.0): leave it at the default.,
cards::ard_stack_hierarchical_count,by_stats,logical,TRUE (default): also the counts of each group.,
cards::ard_stack_hierarchical_count,overall,logical,"TRUE: also each level over all groups (an ""Overall"" column).",
cards::ard_stack,.shuffle,logical,No longer used (cards 0.7.0): leave it at the default.,
cards::ard_tabulate_rows,colname,text,The name the row count is given in the variable column (default ..row_count..).,
cards::ard_attributes,label,code,"Labels to use instead of the data's, as R: list(AGE = ""Age (years)"").",
cardx::ard_tabulate_max,quiet,logical,TRUE: no message about the order the levels were taken in.,
cardx::ard_tabulate_abnormal,excl_baseline_abn,logical,TRUE (default): subjects already abnormal at baseline are not counted.,
cardx::ard_tabulate_abnormal,quiet,logical,TRUE: no messages.,
cardx::ard_categorical_ci,strata,columns,"The strata of the stratified Wilson interval (method = strat_wilson / strat_wilsoncc): one interval over them, not one per stratum.",
cardx::ard_categorical_ci,weights,code,"Stratum weights for the stratified Wilson methods (strat_wilson), as R; blank: estimated.",
cardx::ard_categorical_ci,max.iterations,number,Iterations for estimating the stratified Wilson weights (default 10).,
cardx::ard_incidence_rate,conf.type,choice,"How the confidence interval is computed: normal, normal-log, exact or byar.",
cardx::ard_stats_poisson_test,na.rm,logical,TRUE (default): missing values are left out.,
cardx::ard_stats_anova,method_text,text,The text the ARD records as the method.,
cardx::ard_smd_smd,std.error,logical,TRUE (default): also the standard error and a confidence interval.,
*,package,text,"The package whose model function method names, e.g. survival; blank: base.",
*,tidy_fun,code,The function that turns the model into a table of coefficients; blank: broom / parameters.,
*,response_type,choice,continuous (a mean) or dichotomous (a proportion).,
cardx::ard_survival_survdiff,rho,number,"The G-rho family parameter: 0 (default) the log-rank test, 1 the Peto & Peto test.",
cards::ard_identity,variable,text,The variable name the statistics are recorded under.,
cards::ard_identity,context,text,The context the ARD records (default identity).,
cardx::ard_stats_mantelhaen_test,strata,columns,"The strata of the Cochran-Mantel-Haenszel test: the by x variables association is tested controlling for them (one test, not one per stratum).",
cards::ard_summary,by,columns,"Group columns (the table's columns, e.g. TRT01A): every combination of their levels is analysed, a combination the data do not have too (with 0).",
cards::ard_tabulate,by,columns,"Group columns (the table's columns, e.g. TRT01A): every combination of their levels is analysed, a combination the data do not have too (with 0).",
cards::ard_tabulate_value,by,columns,"Group columns (the table's columns, e.g. TRT01A): every combination of their levels is analysed, a combination the data do not have too (with 0).",
cards::ard_missing,by,columns,"Group columns (the table's columns, e.g. TRT01A): every combination of their levels is analysed, a combination the data do not have too (with 0).",
cards::ard_mvsummary,by,columns,"Group columns (the table's columns, e.g. TRT01A): every combination of their levels is analysed, a combination the data do not have too (with 0).",
cards::ard_tabulate_rows,by,columns,"Group columns (the table's columns, e.g. TRT01A): every combination of their levels is analysed, a combination the data do not have too (with 0).",
cards::ard_stack_hierarchical,by,columns,"Group columns (the table's columns, e.g. TRT01A): every combination of their levels is analysed, a combination the data do not have too (with 0).",
cardx::ard_tabulate_max,by,columns,"Group columns (the table's columns, e.g. TRT01A): every combination of their levels is analysed, a combination the data do not have too (with 0).",
cardx::ard_tabulate_abnormal,by,columns,"Group columns (the table's columns, e.g. TRT01A): every combination of their levels is analysed, a combination the data do not have too (with 0).",
cardx::ard_incidence_rate,by,columns,"Group columns (the table's columns, e.g. TRT01A): every combination of their levels is analysed, a combination the data do not have too (with 0).",
